instructed “symbolic” trials should be affected similarly to inferred “symbolic” trials. The execution phase of “inferred symbolic”, trials, however, is the only point within our task paradigm that requires the resolution of a rule that refers to an internally–produced representation of an abstracted re sponse (i.e., the placeholder A or B). When the stimulus parity does not match that instructed by the rule, across both “con crete” and “symbolic” conditions, the participant must calcu late what to do in response to the evident parity. In “concrete” trials, inference does occur, but the result of that inference is a concrete motor effector, carrying little to no abstraction. In “symbolic” trials, the result of inference is a secondary abstraction (i.e., the placeholder letter) that, through lack of alternatives, must be bound to the apparent parity. PMd rTMS specifically increased response times while resolution of conditional associations between abstract and internally– produced representations was occurring, but not while simi lar resolution operations between relatively concrete or exter nally instructed stimuli were necessary. 
In conclusion, noninvasive stimulation of the dorsal premo tor cortex, a brain region implicated in conditional motor be havior, was found to selectively interfere with responses when task conditions required a resolution of a conditional associ ation referring to abstracted, internally-produced representa tions, but not when resolution between concrete or externally informed representations was necessary. This result suggests that PMd does subserve conditional rule-based behavior, but only when it is reliant on internally-produced representations that are abstracted away from concrete motor effectors. 
References 
Cole, M. W., Laurent, P., & Stocco, A. (2013). Rapid instructed task learning: A new window into the human brains unique capacity for flexible cognitive control. Cog nitive, Affective, & Behavioral Neuroscience, 13(1), 1–22. 
Grafton, S. T., Fagg, A. H., & Arbib, M. A. (1998). Dor sal premotor cortex and conditional movement selection: a PET functional mapping study. Journal of Neurophysiol ogy, 79(2), 1092–1097. 
Guye, M., Parker, G., Symms, M., Boulby, P., Wheeler Kingshott, C., Salek-Haddadi, A., . . . Duncan, J. (2003). Combined functional MRI and tractography to demonstrate the connectivity of the human primary motor cortex in vivo. NeuroImage, 19, 1349–1360. 
Halsband, U., & Freund, H. J. (1990). Premotor cortex and conditional motor learning in man. Brain, 113(1), 207– 222. 
Hanakawa, T. (2011). Rostral premotor cortex as a gateway between motor and cognitive networks. Neuroscience Re search, 70, 144–154. 
Kurata, K., Tsuji, T., Naraki, S., Seino, M., & Abe, Y. (2000). Activation of the dorsal premotor cortex and pre supplementary motor area of humans during an auditory conditional motor task. Journal of Neurophysiology, 84(3), 1667–1672. 
Lu, M., Preston, J. B., & Strick, P. L. (1994). Interconnec tions between the prefrontal cortex and the premotor areas in the frontal lobe. Journal of Comparative Neurology, 341, 375–392. 
Ohbayashi, M., Picard, N., & Strick, P. L. (2016). Inactiva tion of the dorsal premotor area disrupts internally gener ated, but not visually guided, sequential movements. Jour nal of Neuroscience, 36(6), 1971–1976. 
Oshio, R., Tanaka, S., Sadato, N., Sokabe, M., Hanakawa, T., & Honda, M. (2010). Differential effect of double-pulse TMS applied to dorsal premotor cortex and precuneus dur ing internal operation of visuospatial information. Neu roImage, 49, 1108–1115. 
R Core Team. (2013). R: A language and environment for statistical computing [Computer software manual]. Vienna, Austria. Retrieved from http://www.R-project.org/ 
Stadler, W., Ott, D. V. M., Springer, A., Schubotz, R., Schutz Bosbach, S., & Prinz, W. (2012). Repetitive tms suggests a role of the human dorsal premotor cortex in action predic tion. Frontiers in Human Neuroscience, 6(20), 1–11. 
Stocco, A., Lebiere, C., O’Reilly, R. C., & Anderson, J. R. (2012). Distinct contributions of the caudate nucleus, ros tral prefrontal cortex, and parietal cortex to the execution of instructed tasks. Cognitive, Affective, and Behavioral Neuroscience, 12(4), 611–628. 
Strange, B. A., Henson, R. N. A., Friston, K. J., & Dolan, R. J. (2001). Anterior prefrontal cortex mediates rule learning in humans. Cerebral Cortex, 11(11), 1040–1046. 
Taylor, M., & Creelman, C. D. (1967). Pest: Efficient esti mates on probability functions. The Journal of the Acous tical Society of America, 41(4A), 782–787. 
Tomassini, V., Jbabdi, S., Klein, J., Behrens, T., Pozzilli, C., Matthews, P., . . . Johansen-Berg, H. (2007). Diffusion weighted imaging tractography-based parcellation of the human lateral premotor cortex identifies dorsal and ventral subregions with anatomical and functional specializations. Journal of Neuroscience, 27(38), 10259–10269. 
Wallis, J. D., Anderson, K. C., & Miller, E. K. (2001). Single neurons in prefrontal cortex encode abstract rules. Nature, 411(6840), 953–956. 
Wickham, H. (2009). ggplot2: Elegant graphics for data anal ysis [Computer software manual]. Springer-Verlag New York. Retrieved from http://ggplot2.org 
Wise, S. P., Boussaoud, D., Johnson, P. B., & Caminiti, R. (1997). Premotor and parietal cortex: corticocortical con nectivity and combinatorial computations. Annual Review of Neuroscience, 20, 25–42. 
Wutz, A., Loonis, R., Roy, J. E., Donoghue, J. A., & Miller, E. K. (2018). Different levels of category abstraction by different dynamics in different prefrontal areas. Neuron, 97, 1–11. 
Xing, J., & Andersen, R. A. (2000). Models of the posterior parietal cortex which perform multimodal integration and represent space in several coordinate frames. Journal of Cognitive Neuroscience, 12(4), 601–614. 
947
Episodic Control as Meta-Reinforcement Learning 
S Ritter1,2∗, JX Wang1∗, 
Z Kurth-Nelson1,3, M Botvinick1,4 
1DeepMind, London, UK 
2Princeton Neuroscience Institute, Princeton, NJ 
3MPS-UCL Centre for Computational Psychiatry, London, UK 4Gatsby Computational Neuroscience Unit, UCL, London, UK {ritters, wangjane, zebk, botvinick} @google.com 
Abstract 
Recent research has placed episodic reinforcement learning (RL) alongside model-free and model-based RL on the list of processes centrally involved in human reward-based learning. In the present work, we extend the unified account of model free and model-based RL developed by Wang et al. (2017) to further integrate episodic learning. In this account, a generic model-free "meta-learner" learns to deploy and coordinate all of these RL algorithms. The meta-learner is trained on a broad set of novel tasks with limited exposure to each task, such that it learns to learn about new tasks. We show that when equipped with an episodic memory system inspired by theories of reinstatement and gating, the meta-learner learns to use the same pattern of episodic, model-free, and model-based RL observed in humans in a task designed to dissociate among the influences of these learning algorithms. We discuss implications and predictions of the model. 
Keywords: Reinforcement learning; model-based; deep learn ing; meta-learning; episodic memory 
Introduction 
Nearly every decision an intelligent organism makes is in formed by its memory of the results of its past decisions. To be successful, agents must distill the results of past decisions into memories, then make use of those memories to make better decisions in the future. Accordingly, much effort has been directed toward understanding 1) what humans and ani mals store after a sequence of actions and rewards, and 2) how they use that stored information to appraise the value of future actions. 
Model-free and model-based reinforcement learning (RL; Daw, Gershman, Seymour, Dayan, & Dolan, 2011; Sutton & Barto, 1998) offer distinct solutions to these two prob lems. Model-free RL stores statistics about the relationship between states, actions and rewards, and appraises actions by calculating how frequently they led to reward. Meanwhile, model-based RL stores estimated state-state transition proba bilities, and appraises actions by using this model to simulate sequences of states to predict future reward. Signatures of both model-free and model-based learning appear in behavior and in the brain (e.g. Daw et al., 2011), and a venerable tradition holds that they are implemented by dissociable neural systems (for review see Dolan & Dayan, 2013). 
However, the recent theory of meta-reinforcement learning (meta-RL) proposed that model-free learning, model-based 
* These authors contributed equally to this work. 
learning, and their sometimes complex interaction could all be explained by a simple unified mechanism (Wang, Kurth Nelson, Tirumala, Soyer, et al., 2017; Wang, Kurth-Nelson, Tirumala, Leibo, et al., 2017). In meta-RL, the weights of a recurrent neural network (RNN) are trained by model-free learning on a series of interrelated tasks, and given the reward signal as part of its input. Remarkably, this leads to the emer gence of an independent RL algorithm implemented in the activation dynamics. Through its recurrence, the network has access to the history of observations, actions, and rewards. It learns to distill this history into its activation dynamics (a form of working memory) and use this to select rewarding actions. The end result is a learned reinforcement learning al gorithm that operates even with the weights of the RNN frozen. This meta-learned algorithm can itself be model-based even though it was acquired through model-free learning (Wang, Kurth-Nelson, Tirumala, Soyer, et al., 2017). 
While meta-RL provides a full account of incremental learn ing as it is carried out in working memory, it does not account for the episodic learning processes to which attention has re cently been called (Gershman & Daw, 2017). In addition to learning by incrementally storing recent sequences of behavior in working memory, humans appear to learn by storing sum maries of individual episodes for long periods of time, then retrieving them when similar contexts are encountered. For example, cues triggering episodic memory retrieval impact reward-based learning, both for good and for ill (Bornstein, Khaw, Shohamy, & Daw, 2017; Wimmer, Braun, Daw, & Shohamy, 2014), and distinctive aspects of episodic memory function contribute to decision-making behavior (Vikbladh, Shohamy, & Daw, 2017; Bornstein & Norman, 2017). Such observations, along with some fundamental computational insights, have recently landed episodic learning a spot be side incremental model-free and model-based reinforcement learning on the list of processes centrally involved in decision making (RL; Gershman & Daw, 2017). 
In the present work, we develop a natural extension to meta RL that enables it to integrate episodic learning. The resulting theory explains how incremental and episodic learning, as well as the coordination between them can be meta-learned through purely model-free RL. The episodic meta-RL theory proposes the following: 
1. Meta-RL’s working memory is supplemented by a non 948
parametric long-term memory which itself stores working memory states. 
2. Each state is paired with a perceptual context embedding that is later used to retrieve the working memory state when similar perceptual contexts are encountered. 
3. The retrieved states are then gated into the working mem ory using a parameterized function, whose parameters are optimized toward the same model-free objective that trains working memory. 
This proposal is inspired in part by evidence that episodic memory retrieval in humans operates through reinstatement, triggering patterns of neural activity related to those that were induced by the original encoding of the relevant episode (see, e.g., Xiao et al., 2017), and evidence that reinstatement oc curs not only in perceptual systems, but also recreates pat terns of activity in neural circuits supporting working memory (see Hoskin, Bornstein, Norman, & Cohen, 2017; Cohen & O’Reilly, 1996). Our implementation of this proposal draws additional inspiration from recent work on differentiable mem ory systems (e.g., Graves et al., 2016), especially that of Pritzel et al. (2017), which makes use of context-based retrieval for RL. 
To empirically test this model, in this work we compare its behavior to that of humans observed by Vikbladh et al. (2017) in a task designed to dissociate the effects of multi ple types of incremental and episodic learning. Vikbladh and colleagues found evidence of the use of a model-based form of episodic memory, whereby traces of specific episodes are retrieved from long-term memory based on visual similarity, then used along with knowledge of the transition structure of the environment to select actions. This episodic model-based learning was present in conjunction with incremental model free and incremental model-based learning. In the following sections, we describe the task in detail and demonstrate that meta-RL with episodic memory replicates the qualitative pat tern of human behavioral results observed by Vikbladh et al. To conclude, we consider directions for future work, including testable predictions of the theory. 
Task 
The task we study is a version of the two-step task (Daw et al., 2011) augmented with episodic cues to previous trials. The task structure, which was inspired by Vikbladh et al. (2017), is diagrammed in Figure 1. Each trial consisted of two stages. On the first stage, state S0, the agent was either presented with the "no-cue" stimulus (a vector of all -1’s) if this was an uncued trial, or with a binary vector associated with a previously seen second-stage context if this was a cued trial (see Figure 1). In response, the agent chose either a1 or a2 and transitioned into one of two second-stage states S1 or S2 with probabilities P(S1|a1) = P(S2|a2) = 0.9 (common transition) and P(S1|a2) = P(S2|a1) = 0.1 (uncommon transition). On the second stage, the agent was presented with a stimulus representing the context of that second-stage state, followed by a final step in which it was shown the reward outcome. The 
  

Figure 1: Contextual two-step task modeled after Daw et al. (2011) and Vikbladh et al. (2017). (top) Two trial types are shown: uncued and cued. All trials start in state S0 at the first stage, at which point agents are presented with either a "no-cue" stimulus or are cued with a second-stage stimulus seen on a previous trial. Transition proba bilities after taking actions a1 or a2 are depicted in the graph. On uncued trials, S1 and S2 result in Bernoulli rewards with probabilities ra and rb. On cued trials, transitioning into the same state as the trial being cued results in the exact sampled reward as before, r∗a. (bottom) Trials within an episode are split into 4 blocks, with block 3 consisting of cued trials which are cued with stimuli from block 1, and block 4 cued from block 2. 
context thus represented the conjunction of having transitioned into that particular state and obtaining that particular reward. The transition probabilities P were fixed across episodes. On uncued trials, the states S1 and S2 yielded Bernoulli prob abilistic rewards of 0 or 1 according to [ra,rb] = [0.9,0.1] or [0.1,0.9], with the specific reward contingencies having a 10% chance of randomly switching at the beginning of each trial. On cued trials, if the agent transitioned into the same state as on the trial being cued (i.e. the context is the same), the agent was given the exact same reward as before. If the agent transitioned into the other state, the reward was determined as on uncued trials. 
The first half of every episode (50 trials) consisted of all uncued trials, and the second half consisted of only cued trials, with trials 51-75 being cued with stimuli from trials 1-25 and trials 76-100 cued with stimuli from trials 26-50, randomly sampled without replacement. This was done to reduce autocorrelation in the reward probabilities by enforcing a minimum of 25 trials between seeing the stimulus on the second stage and being cued with it on the first stage. 
The agent was trained for 10,000 episodes of 100 trials each, and evaluated with weights fixed on 500 further episodes. 
Learning Algorithms 
The two-step task with episodic cueing is designed to dissoci ate among the influences of four different learning strategies on choice. First, the incremental model-free strategy pre scribes taking the same action that was taken on the last trial if it was rewarded, and taking the opposite action if it was not 
949
  

Figure 2: (Left) A high-level schematic of the recurrent network (LSTM) that comprises the episodic meta-RL (EMRL) agent’s working memory. On each time step the LSTM receives an environment state, the action taken on the previous trial, and the reward received on the previous trial. The LSTM encodes this information incrementally into its cell state c, and then outputs a policy and value estimate (not shown). (Middle) The storage operation to long-term memory at a single LSTM time step. Storage is triggered when reward is received at the end of each two-step trial, at which point the agent appends the contextual cue along with its cell state to a non-parametric store of such items. (Right) The long-term memory retrieval operation which occurs on every time step. A search is carried out over the cues stored in long-term memory for the closest match to the current contextual cue. The working memory activations associated with the closest match are retrieved and reinstated to the working memory state. 
rewarded, regardless of whether the transition on the previous trial was common or uncommon. In contrast, the incremental model-based strategy prescribes staying only if the previous trial was rewarded and the the previous transition was com mon. If the previous transition was uncommon and the trial was rewarded, the agent will take the opposite action. Episodic model-free and model-based strategies operate like their in cremental counterparts, but with respect to the trial associated with the cue rather than the immediately previous trial. 
Model 
In the episodic meta-RL model, vectors represent working memory states, and the function that updates these states and selects actions based on them takes the form of a recurrent neu ral network, specifically a long short-term memory network (LSTM; Hochreiter & Schmidhuber, 1997). To implement context-based reinstatement of the activations in this working memory, we append to this architecture a long-term memory of previous working memory states, searchable by a second column containing representations of perceptual context. This could for instance be the agent’s visual representation of the current environment state or an externally provided stimu lus. Optimization was performed by an implementation of asynchronous actor-critic (Mnih et al., 2016). 
The episodic meta-RL (EMRL) agent writes its current working memory state and perceptual representation to the long-term memory array when appropriate. In our experiments with the two-step task, the agent writes when it receives reward at the end of the each trial. 
The agent reads from this long-term memory array on every time step by searching for the perceptual representation in the array with the smallest cosine distances to that of the current state, allowing it to retrieve the associated working memory state. The retrieved activations are next passed through a learned gating function that arbitrates among the influences on the current working memory state of 1.) current perceptual inputs 2.) the previous working memory state and 3.) the 
working memory state retrieved from long-term memory. This gating mechanism is a natural extension to the standard LSTM working memory, which uses gates to arbitrate between current inputs and previous memory state: 
ct = i ◦ cin + f ◦ cprev 
ctis the current working memory state, cin is the agent’s representation of its current input, cprev is the working memory activation from the previous timestep, and ◦ signifies element wise multiplication. 
The gates i and f are values between zero and one that allow (or disallow) inputs and and past working memory activations into the current state. These gates are computed accordingly: 
i = σ(Wxix+Whih+bi) 
f = σ(Wx f x+Wh f h+bf), 
where x is the perceptual input, h is a function of the previous working memory state, and the weight matrices W and bias vectors b contain learned parameters. 
To reinstate working memory activations retrieved from long-term memory without losing the current contents of work ing memory, our architecture adds the retrieved activations to the current working memory state, after passing them through a gate that is computed in a manner exactly analogous to the standard LSTM gates: 
ct = i ◦ cin + f ◦ cprev +r ◦ cltm 
r = σ(Wxrx+Whrh+br) 
cltm contains the retrieved activations from long-term mem ory. This reinstatement gate r is intended to learn to allow activations from long-term memory into working memory when they are useful, but not when they will interfere with the maintenance of important information in working memory. See Figure 2 for depictions of the architecture. To illustrate 
950
how this architecture works in practice, consider the episodic two-step task, wherein the working memory keeps track of the reward probabilities at each outcome state. In order to infer these quantities, it must maintain information about its past actions and states. When the agent receives reward in the final step of a two-step trial, it will save the activations of its current working memory - which encode the agent’s outcome state and reward - to its long-term memory. These are saved along with a representation of the context stimulus, which models the participant’s visual representation of the object images or fractals in the human experiments (Daw et al., 2011; Vikbladh et al., 2017). 
At the beginning of a future two-step trial, the agent will encounter this same stimulus. It will then search its long-term memory for matches for that stimulus, and will retrieve the hidden state from the past trial. Crucially, this hidden state will encode the state the agent encountered at the end of the last exposure to that stimulus as well as the reward received and the action taken. Possessing this crucial episodic information, the agent is able to exploit the structure of the episodic two-step task. Specifically, it can learn to implement model-based or model-free valuation with respect to trial information retrieved from long-term memory. 
Results 
After training, we assessed meta-RL’s performance on a set of evaluation episodes having the same structure as the training episodes. However, to isolate the behavior of the learned learning algorithm operating in the activation dynamics, all data shown in the Results were obtained with the network’s weights frozen. 
The learned algorithm obtained more reward on cued than uncued trials (Figure 3a; p < 10-10 by Fisher exact test), sug gesting it could make use of the information carried by the episodic cue. We also compared against a control agent (meta RL; MRL) that was trained and tested in exactly the same way, but did not have access to an episodic memory (r-gate was al ways fixed to zero). The agent with episodic memory (EMRL) performed significantly better on cued trials than MRL (Figure 3a; p < 10-16 by Fisher exact test). For comparison, random behavior in this task yields 0.5 reward per trial, while optimal behavior achieves 0.756 on average. 
Next, we asked whether, on uncued trials, EMRL exhibited the canonical pattern of model-based behavior first described in (Daw et al., 2011). In the two-step task, if action at was taken on timestep t, followed by a common transition and resulting in a high reward, then both model-based and model free learners are expected to increase their preference for at. However, if after action at, an uncommon transition was ob served, followed by high reward, a model-free learner will still increase its preference for at (since it was rewarded after taking this action), while a model-based learner will decrease its preference for at (by using its knowledge of the transition structure of the task to infer a higher value for the other action). We formally tested for these patterns of behavior by perform 
ing an ANOVA on the probabilities of repeating the previous action, with two binary factors: whether the previous trial was rewarded, and whether the previous trial had a common tran sition. A main effect of previous trial being rewarded would indicate a model-free strategy, while an interaction between previous trial being rewarded and previous trial being common would indicate a model-based strategy. 
On uncued trials (Figure 3b), we found a strong effect of the interaction term (F(1,1853) = 9134, p ≈ 0), indicating that the learned algorithm correctly exploited the transition struc ture of the task when no episodic information was available, replicating our previous work (Wang, Kurth-Nelson, Tirumala, Soyer, et al., 2017). On cued trials (Figure 3c), we also found an effect of the interaction term (F(1,1893) = 295, p ≈ 0), suggesting that EMRL partially attempted to continue to use the incremental strategy even though it had no reward benefit on cued trials. 
Next, most centrally, we asked whether – on cued trials – EMRL could apply model-based reasoning to information re trieved from episodic memory (Figure 3d). We performed the same ANOVA described above, but using as factors: whether the past trial was rewarded, and whether the past trial had a common transition. Since our task guaranteed receiving the same reward if the agent reached the same state as the past trial, the agent should prefer to take the opposite action as on the past trial if it experienced an uncommon transition and re ceived reward on that trial. We indeed found a strong effect of the interaction term in this analysis (F(1,1850) = 5975, p ≈ 0). This pattern mimics the behavior of humans on the task from which ours was directly inspired (Vikbladh et al., 2017). Note that we only performed this analysis on cued trials because the factors would be undefined on uncued trials. 
To supplement this analysis, we also fit a probabilistic choice model to EMRL’s behavior. In this model, action prob ability was the softmax of the weighted sum of four choice values: 
P(a0) = 1 
1+exp(−(βi fVi f +βibVib +βe fVe f +βebVeb)) 
where, for example, Vi f is the difference in incremental model free values: action a0 minus action a1. All incrementally learned values were updated with the same learning rate α, for a total of five parameters. These were estimated by maximum likelihood on the concatenated data of all 500 episodes (with incrementally learned values reset to 0.5 at the beginning of each episode). Cued and uncued trials were fit separately. Mirroring the human data in Vikbladh et al. (2017), we found a contribution of all systems except episodic model-free, and a reduction in the incremental model-based parameter on cued trials (Figure 4). 
Analysis of Reinstatement Gate Activations We performed a preliminary analysis of the activations of the reinstatement gates (see Figure 5). First, we plotted the time course of mean r-gate values averaged over 500 episodes. We split these time courses based on the stage in the two-step trial 
951
  
  
  
  
(a) Performance (b) Incremental Uncued (c) Incremental Cued (d) Episodic 
Figure 3: EMRL exhibits both incremental and episodic model-based behavior. (a) Average reward obtained by MRL and EMRL on cued and uncued trials. EMRL, but not MRL, makes use of episodic memory on cued trials to earn more reward. (b) Proportion of uncued trials in which EMRL repeated the action it took on the previous trial (t −1), split by whether it received reward on t −1 and whether the transition on t −1 was common. The interaction between those two factors is a sign of model-based learning, as in Daw et al. (2011). (c) Same as b, but for cued trials. (d) Same as b, but split by whether EMRL received reward on trial k and whether the transition on k was common. k refers to the past trial in which the cue was first encountered. 
  
  
  

(a) r-gate throughout an episode (b) r-gate correct vs incorrect 
Figure 5: (a) Time course of the mean values of the reinstatement 
gate averaged over 500 episodes, split up by stage of the trial. (b) 
Mean values of the reinstatement gate on cued trials on which the 
Figure 4: Parameter estimates in a model with weighted contributions of four decision systems. Model was fit to EMRL’s actions separately on cued and uncued trials. All systems except episodic model-free have positive contributions to EMRL’s behavior. The contribution of the incremental model-based system is reduced on cued trials relative to uncued trials. 
(see Figure 1). We first observed that the r-gate was more open during cued trials compared to uncued trials, consistent with the presence of useful episodic information on cued trials. Next, we observed that the r-gate was most open during the first stage of each trial. We believe this makes sense because it is critical to base action on the information retrieved from long-term memory. 
Next, we compared the mean r-gate values on correct cued trials versus cued trials where the agent made an error, and found the r-gate was significantly more open on correct tri als. We speculate that fluctuations in r-gate openness resulting from the multiplexing of episodic memory control with cur rent policy control might have driven some behavioral errors. Future work should analyze this phenomenon in detail. 
Discussion 
The experiments in this work establish that when trained on a task distribution with both incremental and episodic re ward structure, episodic meta-RL learns to simultaneously 
agent selected the optimal and on cued trials on which it selected the opposite action, averaged over all units. 
execute incremental model-based, incremental model-free, and episodic model-based learning strategies. Like the par ticipants in the study by Vikbladh and colleagues, our agent exhibits these three learning strategies, but does not exhibit episodic model-free learning. This striking match in behavior provides support for episodic meta-RL as a model of human decision making as it is implemented by working memory and episodic memory structures. 
Episodic meta-RL thus provides an empirically supported unified account of incremental and episodic learning processes, whereby a single model-free learning mechanism learns to ex ecute and deploy a variety of learning algorithms observed in humans. In addition to this support from behavioral data, the model accords in principle with a large neuroscientific litera ture which supports the notion that episodic memory retrieval recreates patterns of activity in neural circuits supporting work ing memory (see Cohen & O’Reilly, 1996; Lewis-Peacock & Postle, 2008; Staresina, Henson, Kriegeskorte, & Alink, 2012; Hoskin et al., 2017; Xiao et al., 2017). Further, the gating system that allows reinstated activations into working mem ory is formally equivalent to those in the LSTM that inspired neuroscientific theory which posits that multiple such gating 
952
mechanisms operate in prefrontal cortex (Chatham & Badre, 2015). 
The key takeaway from the success so far of the episodic meta-RL model is a proof of the sufficiency of a small set of well motivated architectural components, when trained to optimize a specific objective function, to produce the complex pattern of learning processes observed in humans. The archi tecture components are: 1) a recurrent working memory with 2) a non-parametric store of working memory activations that can be retrieved by context and reinstated through 3) a learned gating system. The objective function is total reward achieved on a distribution of learning tasks. 
Predictions 
This model makes a number of predictions which may be tested through further empirical work: 
• The pattern reinstatement seen during episodic RL tasks (Bornstein & Norman, 2017) should be observed in cases where the patterns in question are linked with working mem ory, rather than only immediate perception. 
• There is already strong neurobiological evidence for gating to regulate the flow of information into and out of working memory (Chatham & Badre, 2015). Analogous experiments should find evidence for a similar mechanism to gate re instated activations from long-term memory into working memory. 
• In a novel episodic RL task, we predict that relevant cues will trigger episodic recall, but this recall initially will not trigger reinstatement in the populations of cells responsible for working memory. As task experience increases, im provements in behavioral performance will be correlated with increased functional coupling between episodic and working memory. However, if DA-dependent plasticity is blocked during training, this increase in functional coupling will be slowed. 
Summary 
In summary, this work presents a new model that explains the collage of learning processes observed in humans during decision making as an interplay between working and episodic memory that is itself learned through training to maximize reward on a distribution of learning tasks. Future work may test the predictions made by this model and test the model’s ability to replicate additional sources of empirical data. 
References 
Bornstein, A. M., Khaw, M. W., Shohamy, D., & Daw, N. D. (2017). Reminders of past choices bias decisions for reward in humans. Nature Communications, 8. 
Bornstein, A. M., & Norman, K. A. (2017). Reinstated episodic context guides sampling-based decisions for re ward. Nature Neuroscience, 20. 
Chatham, C. H., & Badre, D. (2015). Multiple gates on working memory. Current Opinion in Behavioral Sciences. Cohen, J. D., & O’Reilly, R. C. (1996). A preliminary theory of the interactions between prefrontal cortex and hippocam 
pus that contribute to planning and prospective memory. In Prospective memory: Theory and applications. 
Daw, N. D., Gershman, S. J., Seymour, B., Dayan, P., & Dolan, R. J. (2011). Model-based influences on humans’ choices and striatal prediction errors. Neuron, 69(6), 1204–1215. 
Dolan, R. J., & Dayan, P. (2013). Goals and habits in the brain. Neuron, 80(2), 312–325. 
Gershman, S. J., & Daw, N. D. (2017). Reinforcement learning and episodic memory in humans and animals: An integrative framework. Annual review of psychology, 68. 
Graves, A., Wayne, G., Reynolds, M., Harley, T., Danihelka, I., Grabska-Barwinska, A., . . . others (2016). Hybrid comput- ´ ing using a neural network with dynamic external memory. Nature. 
Hochreiter, S., & Schmidhuber, J. (1997). Long short-term memory. Neural computation, 9(8), 1735–1780. 
Hoskin, A. N., Bornstein, A. M., Norman, K. A., & Cohen, J. D. (2017). Refresh my memory: Episodic memory reinstatements intrude on working memory maintenance. bioRxiv, 170720. 
Lewis-Peacock, J. A., & Postle, B. R. (2008). Temporary activation of long-term memory supports working memory. Journal of Neuroscience, 28(35), 8765–8771. 
Mnih, V., Badia, A. P., Mirza, M., Graves, A., Lillicrap, T. P., Harley, T., . . . Kavukcuoglu, K. (2016). Asynchronous methods for deep reinforcement learning. In Proc. of int’l conf. on machine learning, ICML. 
Pritzel, A., Uria, B., Srinivasan, S., Puigdomènech, A., Vinyals, O., Hassabis, D., . . . Blundell, C. (2017). Neural episodic control. arXiv preprint arXiv:1703.01988. 
Staresina, B. P., Henson, R. N., Kriegeskorte, N., & Alink, A. (2012). Episodic reinstatement in the medial temporal lobe. Journal of Neuroscience, 32(50), 18150–18156. 
Sutton, R. S., & Barto, A. G. (1998). Reinforcement learning: An introduction (Vol. 1). MIT press Cambridge. 
Vikbladh, O., Shohamy, D., & Daw, N. (2017). Episodic contributions to model-based reinforcement learning. In Annual conference on cognitive computational neuroscience, CCN. 
Wang, J. X., Kurth-Nelson, Z., Tirumala, D., Leibo, J., Soyer, H., Kumaran, D., & Botvinick, M. (2017). Meta reinforcement learning: a bridge between prefrontal and dopaminergic function. In Cosyne abstracts. 
Wang, J. X., Kurth-Nelson, Z., Tirumala, D., Soyer, H., Leibo, J. Z., Munos, R., . . . Botvinick, M. (2017). Learning to reinforcement learn. Cognitive Science, CogSci. Retrieved from arXivpreprintarXiv:1611.05763 
Wimmer, G. E., Braun, E. K., Daw, N. D., & Shohamy, D. (2014). Episodic memory encoding interferes with reward learning and decreases striatal prediction errors. J Neurosci, 34. 
Xiao, X., Dong, Q., Gao, J., Men, W., Poldrack, R. A., & Xue, G. (2017). Transformed neural pattern reinstatement during episodic memory retrieval. Journal of Neuroscience, 37. 
953
Emergence of vowel-like organization in a color-based communication system 
Gareth Roberts (gareth.roberts@ling.upenn.edu) 
Department of Linguistics, 3401-C Walnut Street 
Philadelphia, PA 19104 USA 
Robin Clark (rclark@sas.upenn.edu) 
Department of Linguistics, 3401-C Walnut Street 
Philadelphia, PA 19104 USA 
Abstract 
Vowel systems exhibit organization, and several theoretical ac counts have been proposed to explain this. A prominent ac count explains organization in terms of maximizing the disper 
sion of vowels, increasing acoustic perceptibility while reduc ing articulatory effort. This implies modality-independence, 
but leaves open questions about the extent to which dispersion 
is driven by articulatory or acoustic pressures. We investigated 
whether vowel-like organization would emerge in a novel vi 
sual communication system in the laboratory, in which partic ipants took turns to send color signals to communicate a set of 
animal referents by moving their fingers around a color space. 
We manipulated the extent to which sender and receiver needs 
were aligned. Overall, systems exhibited significant levels of dispersion; participants also took into account receiver needs, withconsequences for the structure of the resulting systems. 
Keywords: language; phonology; experimental; communica tion game; experimental semiotics 
The phonologies of natural languages exhibit a high degree of organization in their choice and deployment of phonemes. This can be clearly demonstrated with vowels. A vowel is produced by allowing air from the lungs to pass through the vocal tract, with only low levels of constriction. Vowel qual ity is varied by varying the shape of the vocal tract, princi pally by moving the tongue and lips. This leads to variation in formant frequencies, prominent concentrations of acous tic energy. Several formants matter for speech perception, but the first and second are the most important. Tradition ally, the vowel phonemes of a language are plotted in a two dimensional space with the x axis corresponding to the sec ond formant (F2, shown as increasing in frequency from right to left), and the y axis to the first formant (F1, shown as in creasing from top to bottom); see Figure 1. These values cor respond well enough to tongue position that vowels located towards the top left of the space (i.e., with high F2 values and low F1 values) are standardly referred to as high front vow els; that is, these are vowels produced by raising the tongue towards the top front of the mouth (for a more detailed in troduction to the phonetics of vowels see Ladefoged & John son, 2015). The purpose of this paper is to present a novel experimental approach to understanding the origins of, and constraints on, the organization of such spaces. 
That vowel systems exhibit substantial organization has long been recognized (Liljencrants & Lindblom, 1972; Schwartz, Boe, Vall ¨ ee, & Abry, 1997; de Boer, 2000). While ´ the vowelspace is continuous, the vowel phonemes used in a given language are not simply distributed at random across it. Rather, they tend to be dispersed relatively efficiently. In 
Figure 1: Chart of the vowels of the world’s languages (based on charts produced by the International Phonetic Associa tion), with F1 and F2 axes indicated. The chart corresponds roughly to the mouth of a speaker facing left. For each pair of vowels, the vowel on the right is produced with lip rounding. 
a three-vowel system, for instance, it is extremely likely that one vowel will be a high front vowel /i/, one will be a high back vowel /u/, and the third will be a low vowel /A/ or /a/. Larger systems tend to exhibit similarly efficient structure. Several different categories of theory have been proposed to account for this observation (for reviews see de Boer, 2001; Vaux & Samuels, 2015). While some accounts focus on fea tures of individual vowels (e.g., classical “markedness”-based accounts; Jakobson & Halle, 1956; Chomsky & Halle, 1968), others focus on the relationship between vowels in a system. In dispersion theory, a particularly prominent account, op timization of the system is taken to be driven by the func tional pressures of minimizing effort (in particular that of the speaker) while maximizing the perceptual contrast between vowels (Liljencrants & Lindblom, 1972; Lindblom, 1986; de Boer, 2001). 
In fact, most accounts of vowel space organization – with markedness-based accounts a notable exception – claim es sentially that vowel space self-organization is driven by two basic demands: increasing acoustic perceptibility and re ducing articulatory load (Stevens & Keyser, 2010; Mrayati, Carre, & Gu ´ erin, 1988). These demands compete in some ´ cases. It is notable, for instance, that if dimensions beyond the first and second formant are taken into account, vowel systems do not in fact make maximal use of the resources available to them. By nasalizing one of the vowels in a three vowel system and pharyngealizing another, for instance, their 
954
mutual distinctiveness could be increased (cf. de Boer, 2001, p. 15). This is uncommon, however, and the explanation for that would appear to be that incorporating these extra dimen sions increases articulatory complexity for the speaker, and does not become necessary from the point of view of percep tual distinctiveness until the number of vowels in a system gets sufficiently large (Lindblom & Maddieson, 1988). 
Nevertheless, the details of how these demands relate to each other are still not fully clear, and in many respects they are hard to disentangle. It was noted above that the frequen cies of the first and second formants map somewhat well to tongue position, meaning that – in this respect at least – there is a reasonably consistent relationship between articulatory space and acoustic space. This makes it hard to distinguish speaker-driven constraints from listener-driven ones. It might seem intuitive that dispersion is likely to be driven by per ceptibility rather than articulatory ease, but this is in fact not obvious. The edges of the space are advantageous from an articulatory point of view, as they are easier to find than ar bitrary points within the space (for this reason, the corners of the space are particularly advantageous).1 To put the ques tion another way: If acoustic distinctiveness were reduced rather than increased by moving to the edges of the articula tory space, would we see the same pattern? If perceptibility is the main driving force, we should expect not to; if dis persion is driven more by articulatory constraints, then we should expect such a system to look similarly dispersed to real-world systems. Answering this question by manipulat ing the acoustic and articulatory space is in principle possible, but poses severe difficulties, not least reducing the influence of participants’ own natural language phonologies. In this paper, therefore, we present an experiment in which partici pants communicated visually, using fingers as articulators to produce colors as analogs of vowels. 
Our study has more than one goal. The first goal is to es tablish a new experimental approach to investigating vowel space organization. As this implies, it is anticipated that the general approach presented here will be applied to many rel evant questions. The second goal concerns the specific ques tion to which we applied the approach. This question has two parts. First, we tested whether a novel visual communication system would, through cooperative communication, begin to exhibit organization at greater than chance level. Second, we manipulated the extent to which the interests of the “speaker” aligned with those of the “listener” and tested whether, when those interests were not aligned, systems would take that into account and be organized differently. 
Our paradigm draws on a set of approaches that were pri marily developed, and have become an increasingly stan dard method, for investigating the emergence and cultural 
1A comparison can be made with consonants; stop consonants involve bringing articulators into complete contact, while frica tives involve holding them close enough that the air passes through with turbulence. Stop consonants are acquired earlier by children than fricatives and are more common in the world’s languages (Ladefoged & Maddieson, 1996). 
evolution of language. These approaches, which Galantucci (2009) dubbed Experimental Semiotics, involve human par ticipants learning or creating novel communication systems in the laboratory (for a review, see Galantucci, Garrod, & Roberts, 2012), and they involve a social dimension lack ing in traditional artificial-language-learning experiments. In experimental-semiotic studies, participants either engage in a communication task (e.g., Galantucci, 2005; Sneller & Roberts, 2018) or learn a miniature language based on the output of other participants (e.g., Kirby, Cornish, & Smith, 2008; Verhoef, Kirby, & de Boer, 2014). Taking an experimental-semiotic approach has a number of advantages. Analogues to change that would take many years in natural language can be observed in miniature languages over very short time periods; factors that cannot be manipulated outside the laboratory, or cannot be manipulated in natural languages even within the laboratory, can be manipulated in miniature languages with relative ease. By investigating processes of change in non-linguistic communication systems, particularly using novel signaling media, researchers can reduce the in fluence of the participants’ own languages (for further dis cussion of the advantages of this approach, see Galantucci & Roberts, 2012). Although few experimental-semiotic stud ies (to our knowledge) have investigated the organization of combinatorial units in phonological spaces (de Boer & Ver hoef, 2012, is something of an exception), several have in vestigated the emergence of combinatorial units from con tinuous signals (e.g., Roberts & Galantucci, 2012; Roberts, Lewandowski, & Galantucci, 2015; Verhoef et al., 2014; Del Giudice, 2012). Our study was influenced by these: Par ticipants played a cooperative signaling game, sending color signals to each other to communicate a set of animal referents. We manipulated the way different colors could be produced and measured the organization of the resulting systems. 
  

Figure 2: Sender’s screen. Labels are for clarity and were not shown to participants. 
Method 
Participants 
Sixty University of Pennsylvania students (34 female), none of whom suffered from color-blindness, participated in pairs for course credit.2 
2Owing to a software error, other demographic data such as age and handedness were not recorded. However, their distribution is 
955
  
  
Figure 3: Receiver’s screen. Labels are for clarity and were 
not shown to participants. 
Materials 
Participants sat in separate cubicles, each with a computer (a mid-2014 Apple iMac), running custom-designed software (written in Python and Kivy), and a wireless multitouch track pad (a 2009 Apple Magic Trackpad, measuring 13.01cm by 13.13cm). Participants could not see each other from their cubicles or hear each other easily. 
Procedure 
Pairs of participants played a cooperative communication game, taking turns to be Sender and Receiver.3 Each par ticipant (henceforth player) in a pair sat in a separate cubi cle and saw a screen divided vertically into two halves. (For the most part, the screen looked much the same whether the player was Sender or Receiver; Figures 2 and 3). In the left half of the screen, the referent panel, a set of referents were displayed (black animal silhouettes, a subset of those used by Roberts & Galantucci, 2012, Figure 4).4 The top right half of the screen, the color panel, appeared gray as default, but would change color depending on the behavior of the Sender. The same was true of a smaller section immediately below it, the sent-color panel, which was also gray by default and took up a quarter of the width of the screen as a whole and a quar ter of the height. (See Signaling medium Section below for a description of how the color panel and the sent-color panel worked.) To the right of the sent-color panel, a timer was dis played on a white background. Below this, taking up half the width of the screen, was a score panel displaying the pair’s joint score against a black background. 
The referent panel differed slightly for the Sender and the Receiver. First, the referents were not in the same places (and were redistributed randomly each round). Second, no refer ent was ever in the center of the Receiver’s referent panel; 
not expected to have deviated substantially from that of the wider undergraduate population at Penn. 
3It was important for our question that participants both have an opportunity to be Sender and Receiver. Had this not been the case, any differences between conditions could be explained in terms of a failure on the part of the Sender to appreciate the Receiver’s needs. This approach also had the advantage of greater ecological validity. 
4Roberts and Galantucci (2012) used 20 referents in total; we used a 12-referent subset of theirs in order to give participants time to refine their signaling systems. Given the time available, continu ing to add referents until there were twenty would have meant that systems would be in a constant state of flux. 
Figure 4: Referents used in the experiment. The top row ap peared at the beginning of the game; as players became more successful, the other rows were added in turn. 
the Sender, on the other hand, always had one referent in the center, against a red background (Figure 2). Third, the Receiver had a green cursor that could be moved around the referent panel by using the arrow keys on the computer key board (Figure 3). The Sender had no such movable cursor. The Sender’s task was to convey to the Receiver which refer ent they had in the center of their panel by sending colors to the Receiver (see Signaling medium Section below), and the Receiver’s task was to move the cursor to the correct referent and press enter. Both players would then receive feedback: The background of the correct referent would turn red for the Receiver and the background of the chosen referent would turn green for the Sender. This happened whether or not the Receiver chose correctly. If the Receiver did choose correctly, the pair would score one point; their total point score was dis played in the score panel at the bottom of the screen. After players started to do well at signaling the referents, more were added, in groups of four, up to a total of twelve. This would occur if, for all referents in the referent panel, the Receiver had selected them correctly at least 75% of the time over the previous four rounds in which they had occurred (cf. Roberts et al., 2015). 
A round lasted 20s in total, with feedback lasting an ad ditional 2s. If the Receiver had not chosen a referent by the time the 20s were up, the pair scored no point for that round. Whatever the outcome of the round, the players would swap roles for the following round. The game lasted for 80min in total, and would finish at the end of the current round when the 80min mark had been passed. At the start of the experi ment, players played four practice rounds that differed from the ordinary rounds in three ways: First, they lasted 60s; sec ond, the players’ score from these rounds did not carry over into the normal rounds; third, players were reminded at the start of each round whether they were Sender or Receiver. Beyond being told to move a finger around the pad and ob serve the screen, and to hold their finger down for 1s to send a color, players were not instructed how to use the signaling medium, but rather had to explore it on their own. 
956
Signaling medium 
To convey to the Receiver which referent to select, the Sender could send colors. The Sender could do this by moving one finger around on the trackpad. This would produce a color in the color panel on the top right of their screen (but not the Re ceiver’s screen), which would change in real time depending on the coordinates of the Sender’s finger. If the Sender took their finger off the pad or touched the pad with more than one finger, the color panel would appear gray. If the Sender held their finger in place on the trackpad for 1s or longer, the same color would appear for 2s both on the Receiver’s color panel and on the Sender’s sent-color panel. This was the only means by which the Sender could send information to the Receiver.5 A Sender could send as many colors as they liked, within the time available (20s). 
The relationship between the Sender’s finger position and the color produced was based on an RGB color space, with each color composed of red, green, and blue components, the contribution of each ranging from 0 to 1 (e.g., the vec tor [1,0,0], where the digits indicate the red, green, and blue components respectively, would correspond to a bright red color). The basic value for one of the three components in creased from 0 to 1 as the Sender’s finger moved from right to left on the pad, while another decreased from 1 to 0 in the same direction; the third color component increased as the finger moved vertically. Which color corresponded to which direction was counterbalanced, but for any trial, the exact cen ter of the pad corresponded to the vector [0.5, 0.5, 0.5]. If vertical position corresponded to the blue component, then placing the finger in the middle of the top edge of the pad would produce a mixture of red and green [0.5, 0.5, 0], while the middle of the bottom edge would produce a mixture of red, green, and blue, with blue predominating: [0.5, 0.5, 1]. Players were not in fact exposed precisely to the basic color values described here; instead, the values were modified in a way that varied between two conditions. The details of this are described in the Conditions section. 
Conditions 
There were two conditions. In the Bright-edge condition the basic color values described above were altered depending on how close the Sender’s finger was to the center of the pad (Figure 5). This was done by multiplying the color compo nent values by a modifier that ranged from 0 to 1. The mod ifier was calculated as d/doe, where d equals the Euclidean distance between the Sender’s finger and the center of the 
5In this respect, our study differs from earlier experimental semiotic work on combinatorial systems, which were primarily con cerned with investigating the emergence of atomic units from con tinuous media. Participants in those studies were thus not provided with pre-ordained means of producing units. This means that iden tifying how such units might be constituted is itself a challenging task (Roberts & Galantucci, 2012). Because of this, and because we were concerned not with the emergence of such units, but how they become organized, our task forced subjects to select units from a continuous space, thereby simplifying our analysis while still main taining a continuous signal space from which units could be drawn. 
space and doe equals the distance from the center of the space to the outer edge. This meant that colors towards the edges of the space were brighter, and therefore likely to be clearer for the Receiver to distinguish. Since the edges of the pad were also easier to find reliably for the Sender, the pressures acting on the Sender and Receiver were therefore relatively aligned in this condition. 
In the Bright-band condition this was not the case. Here, an imaginary line was drawn 30% of the way in from the edge of the pad. Between the real edge of the pad and this “inner edge”, the modifier was calculated as 1 − (d/doe). Once the Sender’s finger crossed the inner edge, however, the modifier changed to d/die, where die is the distance from the center of the pad to the inner edge. This meant that the colors got brighter as the Sender’s finger moved away from the center of the pad, but then began abruptly to get darker again. The most convenient parts of the pad for the Sender to select reli ably were still along the outer edge of the pad, but the easiest colors to distinguish for the Receiver were closer to the inner edge. The inner edge was in no way marked on the pad or screen; it became apparent to the Sender as they moved their finger around the pad and observed the effect. 
  

Figure 5: Example color spaces for Bright edge and Bright band conditions respectively. Note that participants never saw the space itself, only individual colors. 
Dependent variables 
For each player, we looked at the last successful signal for ev ery referent for which the player could be determined to have established a signal. In terms of the game, this meant that the referent had been successfully communicated in at least three of the last four times it had occurred. This gave us a set of “words” that that player had in their system, each of which was composed of a set of units – colors that had been chosen to be sent. Each unit consisted of an x and a y coordinate corresponding to the player’s finger position when the color was sent.6 We pooled all units across a player’s words and produced a “phoneme inventory”. As in natural language, it was assumed that players might reuse phonemes between words. We therefore trimmed each inventory by compar ing phonemes; if the distance between any two of them was less than 5% of the maximum distance available, one was re moved at random. This left an inventory ranging in size from 
6For the purposes of the analysis presented here, we will focus only on the finger position, ignoring the color coordinates produced. 
957
7 to 19 phonemes (Mean = 11.97). Figure 6a shows an exam ple 12-phoneme inventory from the Bright-edge condition. We then measured the following variables. In each case, the mean value for a pair forms the basis of the results re ported below. 
Phoneme inventory size. The number of phonemes in an in ventory. 
Dispersion. Two measures of dispersion were used: 
Mean pairwise distance. The mean Euclidean distance between all pairs of phonemes. This gives a measure of how well spread out the phonemes are within the space. This was then divided by the maximum possible distance to give a number between 0 and 1. 
Mean distance from center. The mean Euclidean dis tance between the center of the space and the phonemes. This was then divided by the distance from the center to the corner to give a number between 0 and 1. 
Number of referents. The number of referents for which a “word” had successfully been established. 
Success index. This measure was based on how many words a player successfully established and how fast they did so. For every round of a given game, we counted how many referents each player had an established word for (see above) at that point. We then calculated a success in dex as (∑nr1s)/12nr, where nris the number of rounds and the numerator is a cumulative count of s, the number of successfully established words in a given round.7 
We present comparisons between conditions for all vari ables below. For the second and third variables (mean pair wise distance and mean distance from center) we also gener ated random artificial data to provide a baseline. We did this by first counting the number of units in each inventory, be fore trimming (see above) had occurred. Then we generated a random inventory of phonemes of the same size, and trimmed that. Then we measured the mean pairwise distance and mean distance from center for the artificial data. This was repeated 10,000 times, and we counted the number of times the values for the variables in the randomly generated data were equal to or higher than the real data. If this occurred often, it would suggest that the real data did not exhibit particular high lev els of dispersion. In fact, the values in the baseline trials did not in any one of the 10,000 replications equal or exceed the values for the real data in either condition. 
Results 
Communication systems in the Bright-edge condition em ployed slightly more phonemes (M = 12.77; SD = 2.15) than 
7It should be noted that no player could actually score 1, as that would require them to have successfully communicated all twelve referents several times before the start of the game. While this could be accounted for, this would complicate the calculation, which we did not deem necessary for a relative measure of success. 
  

Figure 6: (a) Example inventory from Bright-edge condi tion. Coordinates are normalized by dividing by the width and height of the space; (b) Example (normalized) inventory from Bright-band condition. (c) Mean dispersion; (d) Mean success. Error bars show 95% CI. 
in the Bright-band condition (M = 11.17; SD = 1.81; t(27.19) = 2.2, p = 0.04). There was a positive correlation between the number of phonemes and the number of referents success fully communicated, r = 5.5, n = 30, p = 0.0018. 
Players in the Bright-band condition appear to have taken into account the Receiver’s interests: Phonemes in this con dition were less far from the center of the space (M = 0.53; SD = 0.05) than in the Bright-edge condition (M = 0.63; SD = 0.05; t(27.82) = 5.25, p < 0.0001; Figure 6c). The pair wise distance was also lower (M = 0.37; SD = 0.036) than in the Bright-edge condition (M = 0.45; SD = 0.035; t(27.99) = 5.79, p < 0.00001; Figure 6d). 
Players in the Bright-band condition also found the game harder (Figure 6b). They established successful signals for a mean of 8.3 referents (SD = 2.04), and their mean success index was 0.46 (SD = 0.12). The figures for the Bright-edge condition were significantly higher in each case: 10.83 refer ents (SD = 1.72; t(27.2) = 3.68, p = 0.001), with a mean suc cess index of 0.61 (SD = 0.14; t(27.303) = 3.15, p = 0.004). 
Success also correlated with both Mean distance from cen ter (r(28) = 0.39, p = 0.032) and Mean pairwise distance (r(28) = 0.39, p = 0.032)8 
Discussion 
We set out to answer two questions: First, whether a col laboratively constructed visual communication system would 
8An earlier version of this paper reported no correlation; this was an error based on correlating dispersal with number of referents – a more indirect proxy for success – rather than the success index. 
958
exhibit organization analogous to that of a vowel space; sec ond, whether receivers’ interests with respect to perceptibil ity would be allowed to trump senders’ interests with respect to ease of production. The answer to both questions was a clear yes. Our data provide support for dispersion-based ac counts of phonological organization (as opposed to accounts based on language-specific notions of markedness), suggest ing that the organizational principles involved are modality independent. There are some limitations of the current study. In natural language the articulatory space maps to the acous tic space in a particular way that has likely been subjected to evolutionary forces. The mapping of the trackpad space to the color space in our experiment is rather more arbitrary and has clearly not been subjected to the same kind of evolution ary forces. This has advantages (as our paradigm provides greater space for manipulating variables, and helps shield our data from natural-language influence), but in future work it would be worthwhile taking into account more specific de tails of natural-language speech production. Our study also did not take into account several factors that have been sug gested as playing a role in the organization of vowel spaces, not least generational transmission (Vaux & Samuels, 2015), which might be expected to amplify the biases operating in our experiment (Kalish, Griffiths, & Lewandowsky, 2007). There are well established methods that can be used to inves tigate this in future work (Kirby et al., 2008; Verhoef et al., 2014). However, we consider that, in this paper, we have pre sented a novel and useful experimental paradigm for inves tigating the cultural evolution of phonological spaces, which can be easily adapted to answer a number of questions. 
Acknowledgments 
We thank members of the Cultural Evolution of Language Lab for their work gathering data for this project. 
References 
Chomsky, N., & Halle, M. (1968). The sound patterns of English. Cambridge, MA: MIT Press. 
de Boer, B. (2000). Self-organization in vowel systems. Jour nal of Phonetics, 28(4), 441–465. 
de Boer, B. (2001). The origins of vowel systems. Oxford: Oxford University Press. 
de Boer, B., & Verhoef, T. (2012). Language dynamics in structured form and meaning spaces. Advances in Complex Systems, 15(3–4), 1150021 (20 pages). 
Del Giudice, A. (2012). The emergence of duality of pattern ing through iterated learning: Precursors to phonology in a visual lexicon. Language and Cognition, 4(4), 381–418. 
Galantucci, B. (2005). An experimental study of the emer gence of human communication systems. Cognitive Sci ence, 29(5), 737–67. 
Galantucci, B. (2009). Experimental Semiotics: A new ap proach for studying communication as a form of joint ac tion. Topics in Cognitive Science, 1(2), 393–410. 
Galantucci, B., Garrod, S., & Roberts, G. (2012). Experimen tal Semiotics. Language and Linguistics Compass, 6(8), 477–493. 
Galantucci, B., & Roberts, G. (2012). Experimental Semi otics: An engine of discovery for understanding human communication. Advances in Complex Systems, 15(3–4), 1150026. 
Jakobson, R., & Halle, M. (1956). Fundamentals of lan guage. The Hague: Mouton. 
Kalish, M. L., Griffiths, T. L., & Lewandowsky, S. (2007). It erated learning: Intergenerational knowledge transmission reveals inductive biases. Psychonomic Bulletin & Review, 14(2), 288–294. 
Kirby, S., Cornish, H., & Smith, K. (2008). Cumulative cul tural evolution in the laboratory: An experimental approach to the origins of structure in human language. Proceed ings of the National Academy of Sciences, 105(31), 10681– 10686. 
Ladefoged, P., & Johnson, K. (2015). A course in phonetics (Seventh ed.). Stamford, CT: Cengage Learning. 
Ladefoged, P., & Maddieson, I. (1996). The sounds of the world’s languages. Oxford: Blackwell. 
Liljencrants, J., & Lindblom, B. (1972). Numerical sim ulation of vowel quality systems: The role of perceptual contrast. Language, 48(4), 839–62. 
Lindblom, B. (1986). Phonetic universals in vowel systems. Experimental phonology, 13–44. 
Lindblom, B., & Maddieson, I. (1988). Phonetic universals in consonant systems. Language, Speech, and Mind, 62–78. Mrayati, M., Carre, R., & Gu ´ erin, B. (1988). Distinctive ´ regions and modes: A new theory of speech production. Speech Communication, 7(3), 257–286. 
Roberts, G., & Galantucci, B. (2012). The emergence of du ality of patterning: Insights from the laboratory. Language and Cognition, 4(4), 297–318. 
Roberts, G., Lewandowski, J., & Galantucci, B. (2015). How communication changes when we cannot mime the world: Experimental evidence for the effect of iconicity on com binatoriality. Cognition, 141, 52–66. 
Schwartz, J.-L., Boe, L.-J., Vall ¨ ee, N., & Abry, C. (1997). ´ Major trends in vowel system inventories. Journal of Pho netics, 25, 233–253. 
Sneller, B., & Roberts, G. (2018). Why some behaviors spread while others don’t: A laboratory simulation of di alect contact. Cognition, 170C, 298–311. 
Stevens, K. N., & Keyser, S. J. (2010). Quantal theory, en hancement and overlap. Journal of Phonetics, 38(1), 10– 19. 
Vaux, B., & Samuels, B. (2015). Explaining vowel systems: Dispersion theory vs. natural selection. The Linguistic Re view, 32(3), 573–599. 
Verhoef, T., Kirby, S., & de Boer, B. (2014). Emergence of combinatorial structure and economy through iterated learning with continuous acoustic signals. Journal of Pho netics, 43, 57–68. 
959
This and that back in context:  
Grounding demonstrative reference in manual and social affordances 
Roberta Rocca (roberta.rocca@cc.au.dk) 
Department of Linguistics, Cognitive Science and Semiotics,  
Aarhus University, Jens Chr. Skous Vej 2, 8000 – Aarhus C, Denmark 
Mikkel Wallentin (mikkel@cc.au.dk) 
Department of Linguistics, Cognitive Science and Semiotics & Center of Functionally Integrative Neuroscience,  Aarhus University, Jens Chr. Skous Vej 2, 8000 – Aarhus C, Denmark 
Cordula Vesper (cvesper@cc.au.dk) 
Department of Linguistics, Cognitive Science and Semiotics & Interacting Minds Centre,  Aarhus University, Jens Chr. Skous Vej 2, 8000 – Aarhus C, Denmark 
Kristian Tylén (kristian@cc.au.dk) 
Department of Linguistics, Cognitive Science and Semiotics & Interacting Minds Centre,  Aarhus University, Jens Chr. Skous Vej 2, 8000 – Aarhus C, Denmark 
Abstract 
Spatial demonstratives, i.e. words like this and that, serve as  important tools to establish joint attention, allowing  interlocutors to flexibly share spatial reference schemes.  However, little experimental work has investigated which  perceptual and social factors drive speakers’ choices of  demonstrative forms. We used a novel experimental paradigm  to explore 1) the role of relative placement of competing referents on the sagittal and lateral planes, 2) whether and how  the presence of an addressee modulates the speaker’s choice of  demonstrative forms. We found that the choice of  demonstratives is affected by the relative position of competing referents both on the sagittal and lateral plane.  Furthermore, we found that the presence of an interlocutor  shifts attraction for proximal demonstratives towards the  shared space of reference, but only in collaborative contexts.  Together, these results suggest that spatial deixis is grounded  in a contrastive organization of space tightly coupled to manual  and social affordances. 
Keywords: demonstratives; social cognition; spatial  cognition; spatial deixis 
Introduction 
The ability to establish joint attention on objects or locations  is a fundamental building block of human sociality (Tomasello, 2005). A wide spectrum of everyday activities  relies on the ability to coordinate on and navigate joint  attentional scenes. Natural languages are endowed with a  large inventory of strategies that can be used for spatial  referencing and coordination purposes (Tylén et al., 2010).  Among them, spatial demonstratives, i.e. words like this and  that, stand out, as attentional alignment isintegral to their use 
(Diessel 1999). Demonstratives are prominent items in  linguistic interaction. They are among the first lexical items  to be mastered during development, and alongside  
960
communicative pointing, they play a crucial role in bootstrap ping language acquisition (Diessel, 1999; Diessel, 2006).  Additionally, demonstratives can be regarded as cross linguistic universals (Diessel, 2006).  
In contrast to other strategies for verbal referencing, such  as the use of nouns and descriptions, demonstratives carry  minimal semantic specification of the intended referent, causing their interpretation to crucially hinge on the context  of the utterance (Diessel, 1999; Levinson, 1983). 
Physical context 
When used to refer to entities in the physical context of the  utterance, demonstratives are typically coupled with visual  signals such as pointing gestures (Clark, 1996; Cooperrider,  2016) or gaze cues (Perea-García et al., 2017), which deliver 
crucial information on the location of the intended referents  relative to the speaker. In an EEG/ERPs experiment, Stevens  & Zhang (2012) reported N400 effects for incongruence  between demonstratives and object location only when the  speaker and addressee in the scene established joint gaze on  the referent. As demonstratives are used as attention aligning  devices, participants perceived the absence of shared gaze as  a violation in their use. 
With the exception of very few languages, all  demonstrative systems explicitly encode at least a minimal dyadic contrast between proximal and distal referents. More  complex demonstrative systems display either more fine grained distance-based contrasts, e.g. via explicit lexical encoding of medial distances from the speaker, or additional  person-oriented contrasts, providing, for example, some  specification on the position of referents relative to the  addressee (Diessel, 1999).  
Previous studies have experimentally investigated the  motivations for this distance-based distinction, and provided empirical evidence for a mapping between the proxi mal/distal contrast in demonstrative systems and a functional  
representation of space in body-centered coordinates. In a  series of studies relying on a paradigm labelled the memory  game, Coventry and colleagues asked participants to point at  referents located at varying distances from the speaker on the  sagittal axis and to refer to them by either a proximal or a  distal demonstrative (Coventry et al, 2008; Coventry et al.,  2014; Gudde et al., 2016). They established a mapping  between distance-based contrasts in demonstratives and the  distinction between peripersonal and extrapersonal space,  consistent across a variety of genetically heterogeneous  languages. 
Interestingly, the choice of demonstratives along the  proximal / distal axis inherits the characteristic flexibility of the boundary between peripersonal and extrapersonal space  (Coventry et al., 2014). It has been shown that the use of  proximal demonstratives is sensitive to manipulations of the  scope of peripersonal space achieved with tool use (Longo &  Lourenco, 2006). Moreover, just like physical distance and  object attributes such as graspability and affective valence  interact in perceptual judgements of reachability (Valdés Conroy et al., 2012), the choice of demonstratives in dyadic 
systems is affected by perceptual parameters of the referent  (e.g. visibility), as well as by psychological parameters such  as ownership and familiarity (Coventry et al., 2014).  
However, spatial demonstratives resist a rigid mapping  onto body-centered representations of physical space.  Bonfiglioli et al. (2009) exploited well-established  interference effects between word meaning and movement  planning and execution (Glover et al., 2004) to explore the  semantics of spatial deixis. Participants were primed with  either a proximal demonstrative or a distal demonstrative,  then performed reach-for-grasp movements for objects  located at two different distances in peripersonal space. They  found that incongruence between demonstratives and spatial  locations affected reaction times in movement execution.  Together, these studies suggest that the use of demonstratives  is not alone determined by physical distance between a single referent and the speaker, but rather reflects a flexible and  context-sensitive implementation of the contrastive potential  of the demonstrative system as a whole (Kemmerer, 1999; 
2006). 
Social context  
In a recent series of EEG studies, Peeters and colleagues (2015) have questioned purely egocentric proximity-based  accounts of spatial deixis and stressed the role of the social  context of utterance. Based on N400 effects, they reported a  preference for proximal demonstratives for objects located in  space shared between two interlocutors, irrespective of the  distance of the referent from the speaker. Based on these  results, the authors argue in favor of a reference frame  
961
centered on the conversational dyad, rather than on the  speaker alone. This proposal is in line with accounts of linguistic reference as a collaborative process (Clark, 1996).  As pointed out within such frameworks, speakers design their  communicative acts by actively taking into account the  addressee’s perspective and their common ground (Clark et  al., 1983; Clark and Bangerter 2004). 
The present study 
The aim of the present study was to address a number of  outstanding questions related to how physical and social  context influence demonstrative use. First, as previous  experiments simplified reference resolution to single-referent  contexts (which would not capture naturalistic situations of  demonstrative use), we aimed to test how the presence of  competing referents modulates the choice of demonstrative  forms in interaction. We hypothesized that proximal  demonstratives are more likely to be used for referents  relatively closer to the speaker on the sagittal axis. 
Secondly, existing paradigms have put the emphasis  exclusively on the specifics of spatial deixis along the sagittal  axis. It is, however, widely established that biomechanical constraints, such as handedness, may be a prominent source  of asymmetries in perceptual space. Perceptual  representations of peripersonal space underlying planning  and execution of reaching movements rely on dynamic  transformations between hand-centered and retinocentric  coordinates (Makin et al., 2012). In the light of the hypothesis  that the proximal/distal contrast is grounded on functional  representations of space for reach and grasp (Coventry et al.,  2014), a hand-centered frame of reference might indeed be  crucial for the understanding of demonstrative reference. If the hand, rather than the locus of foveal fixation or the head,  is the center of the deictic frame of reference, a lateralized  bias for proximal demonstratives towards the hand used for  pointing would be expected which has not been captured by  previous experimental paradigms. Given these previous  findings, and with all our participants being right-handed, we  hypothesized a right-lateralized bias in favor of proximal  demonstratives. 
Last, existing literature has tackled deixis in individual  contexts, without the presence of a conversational partner.  However, while some languages lexicalize distinctions  between locations of referents relative to an addressee,  demonstrative choice in languages lacking an explicit  encoding of the addressee’s standpoint may still be affected  by perceptual common ground between interlocutors (Peeters  et al., 2015). Therefore, we hypothesized that physical biases would be attenuated by the presence of a social partner in  contexts of collaborative interaction. 
Baseline Complementary Collaborative “SQUARE” 
“THAT” 
“THIS” 
“THAT” “STAR” “THIS” 
“THAT” 
“THIS” 
Figure 1: Experimental setup of the three conditions  
To test our hypotheses, participants in the present study  saw pairs of targets briefly appearing on a 40’’ monitor lying  horizontally. Their task was to point at the location of the two  targets while referring to each of them by either a Danish  proximal (“den her”) or a distal demonstrative (“den der”).  Participants were tested under three conditions: an individual 
baseline, a complementary condition, where a confederate  performed a task unrelated to the participant’s pointing, and  a collaborative condition, in which the participant’s pointing  was functional to the confederate’s task. The hypotheses were 
preregistered on the Open Science Framework prior to  conducting the experiment. The preregistration is available  here: osf.io/gjnf9. 
Methods 
Participants 
80 right-handed participants (female = 43, age range = 19- 48, median = 26, sd = 7.6) with Danish as first language took  part in the experiment at the Cognition and Behavior Lab at  Aarhus University in return for a monetary compensation.  The authors and two student assistants took turns in the role  of experimenter (live-coding the subject’s responses) and confederate. 
Design & Procedure 
The task was presented as a spatial working memory test  (in line with Coventry et al., 2008; 2014). In each trial, a grid  of circles would appear on the screen for 500 ms. Then the  grid disappeared and two target shapes (circles, triangles,  squares, hexagons, stars) appeared on the screen for a random  interval between 200 – 800 ms. Then the grid would reappear  and the participants were prompted to designate the target  positions. The position of targets was randomized across  trials. Subjects were instructed to remember the locations of  targets, then point at them while referring to the objects with  the Danish demonstratives “den her” or “den der”. They were  explicitly instructed to use both demonstrative forms in each  trial, and were reminded to do so whenever they disregarded  the rule. No explicit instructions were given on the order of  
962
the points nor on the order of deictic forms. There were 132  trials per condition per subject.  
Participants performed the task across three conditions. In the  baseline condition, subjects performed the task alone. In the  complementary condition, a confederate stood to the left of  the subject and named the target shapes (e.g. “star, circle”)  after the participant was done pointing. There was no  interaction between the two tasks, and therefore neither the  participant nor the confederate depended on the information  provided by the other to perform their own task. In the  collaborative condition, the confederate would close her eyes  during target exposure and only opened them after a click  sound. The participant then pointed at the location of both  targets so to allow the confederate to report them on a touch  screen device placed next to the big screen. The baseline was  always performed first. The order of the complementary and  collaborative conditions was counterbalanced. 
Analysis 
The relative distances between the x coordinates and the y  coordinates of the two targets were used as predictors for a mixed effects logistic regression using the glmer function  from lme4 package in RStudio. For each trial, one of the two  targets (henceforth: T1) was randomly selected and logged as  target of interest. The relative distances on each of the axes  were computed by subtracting the x coordinates and the y  coordinate of the competitor target (henceforth: T2) from  those of T1. The relative distance on the x axis took positive  values if T1 was further to the right than T2, whereas their  distance on the y axis took positive values if T1 was further  away from the speaker than T2 on a sagittal axis. The fixed  effects structure of the model included the relative distance  between the two targets on the y axis, the relative distance  between the two targets on the x axis, and condition, as well  as all interactions.  
The demonstrative form (proximal or distal) chosen to refer  to T1 was used as outcome variable in the model. The distal  demonstrative (“den der”) was set as reference level, while  the proximal form (“den her”) was coded as success outcome.  
The random effect structure included random intercepts for  each participant as well as random slopes for relative distance  on the y axis. 
Proportion of demonstratives, RelY 100 
75 
50 
25 
0 
Proportion of demonstratives, RelX 
DER 
HER 
0.0 0.15 0.3 0.60 0.75 −1.2 −0.2 0 1 
−0.75 −0.6 −0.45 −0.3 −0.15 0.45 Distance between targets on Y axis 
−1.4 −1 −0.8 −0.6 −0.4 0.2 0.4 0.6 0.8 1.2 1.4 Distance between targets on X axis 
Figure 2: proportion of demonstratives across values of RelY (left) and RelX (right) across all conditions 
Parameters were estimated using maximum likelihood  estimation with Laplace approximation. The power  simulation for the model is reported in the preregistration,  yielding 70-100% power for fixed effects and two-way  interactions. Planned contrasts for the categorical predictor  compared the subject’s behavior in the baseline condition  with cumulative behavior in the social condition, as well as  the complementary condition against the collaborative  condition. 
Results 
After discarding invalid responses, a total of 31394 out of  31680 data points was included in the analysis. As shown in  Figure 2 (left), the proportion of proximal demonstratives  decreases as a function of increases in the value of RelY, i.e.  as T1 moves further away from the speaker on the sagittal  axis relative to T2. Figure 2 (right) displays the pattern for  RelX: there was an increase in proportion of proximal  demonstratives as a function of an increase in the value of  RelX, i.e. as T1 moves further to the right relative to T2.  
A mixed effects logistic regression model with RelX, RelY  and condition as predictors, and including all interactions, confirms the statistical reliability of these patterns. The model displays a significant effect of RelY, β = -2.59, se = 0.27, z =  -9.7, p < .001 and of RelX, β = 0.32, se = 0.02, z = 16.77, p < .001. 
Planned contrasts reveal a significant interaction between RelX and Condition when comparing the complementary and  collaborative condition, β = 0.05, se = 0.02, z = 2.17, p < .05.  No such effect is observed when cumulatively comparing the  baseline to the social conditions, β = -0.001, se = 0.01, z = - 0.079, p = .93.  
Moreover, the interaction between RelY and Condition reaches statistical significance both in the contrast between baseline and the two social conditions, β = -0.07, se =0.03, z = -2.51, p < 0.01, and between the complementary and  
collaborative condition, β = -0.11, se = 0.05, z = - 2.45, p <  .01. None of the three-way interactions reached statistical  significance. 
963
Discussion 
In the following, we discuss the results with respect to our  three hypotheses.  
Relative distance on the sagittal axis As shown by the main effect of RelY, the relative distance between targets on the sagittal axis had an impact on the use of demonstratives.  As the sagittal distance between the two referents increased,  the likelihood of observing a distal demonstrative  progressively increased. While the latter point is in line with  the well-established preference for distal demonstratives for  referents placed far from the speaker (Coventry et al., 2008),  such a finding adds to current knowledge along some  intriguing dimensions. First, it provides empirical evidence  for the hypothesis that demonstrative reference is grounded  on the construction of a contrastive space of competing 
referents, in addition to a mapping between deictic space and  near/far space. In other words, in the context of competing  referents, the organization of deictic space is set up  contrastively, by taking into account the interplay between  distances of the intended referent from the speaker’s body  and from competing referents. 
Right-lateralized bias within peripersonal space Across  all conditions, we found a right-lateralized preference for  proximal demonstratives. The preference for proximal  demonstratives was strengthened as the distance between the  target referent and the competing referent increased. This  finding is in line with previous research hypothesizing a  lateralized bias in peripersonal space, and can be attributed to  space being encoded in hand-centered coordinates, which  facilitates fast execution of hand movements by reducing the  load of sensorimotor transformations (Makin et al., 2012).  This correspondence between the organization of  demonstrative space and hand-based encoding of space is in  line with the link between the proximal/distal distinction and  reach for grasp actions, which has previously been  established in the literature on demonstratives use (Coventry  et al., 2014; Bonfiglioli et al., 2009). While Coventry and  colleagues (2008; 2014) frame this relationship in terms of  binary (though flexible) distinction between space within reach and out of reach, Bonfiglioli and coworkers (2009)  argue that the conceptual space for this and that is grounded  on differences in distance even within peripersonal space. 
Baseline Complementary Collaborative Figure 3: Heat maps displaying the proportion of proximal demonstratives across values of RelX (x-axis) and RelY (y-axis)   
Together, our findings provide evidence in favor of  proximal/distal distinctions being grounded on gradient  affordance for manual interaction rather than on an absolute  mapping. While the present investigation does not fully  explore manipulations of target locations going significantly  beyond peripersonal space, the paradigm allowed to show  that the proximal/distal organization of space is indeed  grounded in biomechanics, with objects more readily  affording grasp being more likely to be labelled via a  proximal demonstrative. 
This further underlines the integral role of multimodal  components in deictic reference, as the right-lateralized bias  in the organization of space probably reflects a bias towards  the pointing hand. However, in the experiment we did not  manipulate which hand is used for pointing nor did we  include any left-handed participant. Therefore, the current  results might either be due to a bias in favor of the hand used  for pointing (independently of handedness) or in favor of the  dominant hand (independently of the hand used for pointing). 
Further research including relevant manipulations is required  in order to disentangle such possibilities. An additional  explanation is that asymmetries are due to a general  perceptual bias. However, previous studies have mostly  reported left-lateralized biases in perceptual tasks and visual  imagery, which have been attributed to reading direction  (Jewell & McCourt, 2000; Stoustrup & Wallentin, 2017). Our  results point in the opposite direction, thus suggesting that  biomechanical constraints tend to override purely perceptual  sources of asymmetries when motor components are essential  for the task at stake. 
It is to be pointed out that we initially predicted lateralized  biases to be detected in the form of an interaction between  RelX and RelY, as we expected it to apply only to referents with low absolute values of RelY. The observed main effect  of RelX rather suggests that the right-lateralized bias is  independent of the position of the targets on the y-axis, which shows that such bias might be even more prominent than  expected in influencing demonstrative production. This  consideration also applies to the interaction between RelX  and Condition reported below, which was initially expected  in the form of a three-way interaction with RelY.  
Social presence and collaboration For demonstration  purposes, Figure 3 displays the distribution of proximal  demonstratives as a function of variation in RelX and RelY.  The heat maps are oriented so to display higher values of  RelX towards the right, and higher values of RelY towards the  
964
top. As figure 3 suggests, the baseline and the complementary  condition display a similar pattern, with a slightly more  pronounced bias in the complementary condition. In the  complementary condition, the confederate’s task was to name  which shapes lit up on the screen. When the confederate takes  up the semantic part of the task, the speaker’s increased focus  on the spatial location of the referents resulted in a more  pronounced right-lateralized bias. 
However, the bias is significantly attenuated in the  collaborative condition, i.e. when the speaker and addressee  are engaged in a task involving actual collaboration and,  therefore, functional, communicative pointing. This result  provides evidence for the fact that, when pointing, the  participant factors in the position of the addressee, which  induces a shift in the proximal space towards the space shared  between the two interlocutors. Interestingly, this is not the  case for mere co-presence of another participant (in the  complementary condition), but rather requires involvement  of the interlocutors in a collaborative interaction. In this case,  since the information conveyed by the speaker’s pointing is  functional to the addressee’s task, the speaker might  spontaneously facilitate the interlocutor’s task by adjusting  her proximal space towards shared space. 
The effect of RelY also seems to be modulated across  conditions, with the preference for proximal demonstratives  for closer referents becoming weaker in the two social  conditions compared to the baseline, an effect which is likely  to be driven by the collaborative condition. Although it has  to be acknowledged that this effect was not part of our initial  set of hypotheses, it affords an interpretation compatible with  our previous remarks. Indeed, the effect suggests that the  purely hand-based contrastive space set up in the baseline is  attenuated by the presence of an addressee in favor of an  organization of space which takes social components into  account.  
Moreover, the heat map for the collaborative condition  indicates higher frequency of proximal demonstratives for  negative RelX and higher RelY (centre left of the map) than  the complementary condition and the baseline, which  corresponds to proportionally more proximal demonstratives  for cases in which T1 is located more towards the left of the  speaker (and therefore closer to the addressee) but further away from the speaker. This suggests that such effect might  be mostly driven by data points with high values of RelX. 
Conclusion 
We investigated the effect of object location and social  presence in use of demonstratives. Our results suggest that  participants’ tendency to use proximal demonstratives  increases as the target of interest gets closer to the speaker 
and further away from the competing target, which suggests  that deictic space is organized as a contrastive space rather  than relying uniquely on a fixed mapping between  peripersonal and extrapersonal space. 
Additionally, we observed a right-lateralized bias in the  use of proximal demonstratives. This provides evidence  towards a tight link between the organization of space in  spatial deixis and action, under the hypothesis that proximal  demonstratives are more likely to be used for referents  affording easier manual interaction. Finally, we observed that  both the effect of relative distance on the y axis and the effect  of relative distance on the x axis are modulated by the  presence of an addressee cooperating with the speaker in  solving a shared task. Speakers shift their proximal space towards shared space, a finding which suggests that the  organization of space in demonstrative reference is tightly  coupled to social affordances. 
Acknowledgements 
This project was funded via a seed-funding grant from the  Interacting Minds Centre at Aarhus University. Roberta  Rocca is funded by the DCOMM grant (EU H2020 ITN  Marie Skłodowska-Curie Actions; grant agreement 676063). 
We wish to thank Sergio Gonzalez de la Higuera Rojo and  Caroline Kildahl for their assistance with data collection. 
References  
Bonfiglioli, C., Finocchiaro, C., Gesierich, B., Rositani, F., &  Vescovi, M. (2009). A kinematic approach to the  conceptual representations of this and that. Cognition,  111(2), 270-274. 
Clark, H. H. (1996). Using language. Cambridge University  Press. 
Clark, H. H., Schreuder, R., & Buttrick, S. (1983). Common  ground at the understanding of demonstrative  reference. Journal of verbal learning and verbal  behavior, 22(2), 245-258. 
Clark, H. H., & Bangerter, A. (2004). Changing ideas about  reference. In Experimental pragmatics (pp. 25-49).  Palgrave Macmillan UK. 
Cooperrider, K. (2016). The co-organization of  demonstratives and pointing gestures. Discourse  Processes, 53(8), 632-656. 
Coventry, K. R., Valdés, B., Castillo, A., & Guijarro-Fuentes,  P. (2008). Language within your reach: Near–far perceptual  space and spatial demonstratives. Cognition, 108(3), 889- 895. 
Coventry, K. R., Griffiths, D., and Hamilton, C. J. (2014).  Spatial demonstratives and perceptual space: describing  
965
and remembering object location. Cogn. Psychol. 69, 46– 70. 
Diessel, H. (1999). Demonstratives: Form, function and  grammaticalization, John Benjamins Publishing. Diessel, H. (2006). Demonstratives, joint attention, and the  emergence of grammar. Cognitive linguistics, 17(4), 463- 489. 
Glover, S., Rosenbaum, D. A., Graham, J., & Dixon, P.  (2004). Grasping the meaning of words. Experimental  Brain Research, 154(1), 103-108. 
Gudde, H. B., Coventry, K. R., & Engelhardt, P. E. (2016).  Language and memory for object location. Cognition, 153,  99-107. 
Jewell, G., & McCourt, M. E. (2000). Pseudoneglect: a  review and meta-analysis of performance factors in line  bisection tasks. Neuropsychologia, 38(1), 93-110. 
Kemmerer, D. (1999). “Near” and “far” in language and  perception. Cognition, 73(1), 35-63. 
Kemmerer, D. (2006). The semantics of space: Integrating  linguistic typology and cognitive  neuroscience. Neuropsychologia, 44(9), 1607-1621. 
Levinson, S. C. 1983. Pragmatics. Cambridge University  Press.  
Longo, M. R., & Lourenco, S. F. (2006). On the nature of  near space: Effects of tool use and the transition to far  space. Neuropsychologia, 44, 977-981.  
Makin, T. R., Holmes, N. P., Brozzoli, C., & Farnè, A.  (2012). Keeping the world at hand: rapid visuomotor  processing for hand–object interactions. Experimental  brain research, 219(4), 421-428. 
Perea-García, J. O., Ehlers, K. R., & Tylén, K. (2017). Bodily  constraints contributing to multimodal referentiality in  humans: The contribution of a de-pigmented sclera to  proto-declaratives. Language & Communication, 54, 73- 
81. 
Peeters, D., Hagoort, P., and Özyürek, A. (2015).  Electrophysiological evidence for the role of shared space  in online comprehension of spatial demonstratives.  Cognition 136, 64–84 
Stevens, J., & Zhang, Y. (2013). Relative distance and gaze  in the use of entity-referring spatial demonstratives: An  event-related potential study. Journal of  Neurolinguistics, 26(1), 31-45. 
Stroustrup, S., & Wallentin, M. (2017). Grammatical  category influences lateralized imagery for  sentences. Language and Cognition, 1-15. 
Tomasello, M., Carpenter, M., Call, J., Behne, T. and Moll,  H. (2005). Understanding and sharing intentions: the  origins of cultural cognition. Behavioral and Brain  Sciences, 28, 675–91; discussion, 691-735. 
Tylén, K., Weed, E., Wallentin, M., Roepstorff, A., & Frith,  C. D. (2010). Language as a tool for interacting  minds. Mind & Language, 25(1), 3-29. 
Valdés-Conroy, B., Román, F. J., Hinojosa, J. A., & Shorkey,  S. P. (2012). So far so good: Emotion in the  peripersonal/extrapersonal space. PLoS one, 7(11),  e49162. 
Dynamic speech adaptation to unreliable cues during intonational processing 
Timo B. Roettger (timo.roettger@northwestern.edu) 
1Northwestern University, Department of Linguistics 
2016 Sheridan Rd, Evanston, IL 60208 USA 
2University of Cologne, IfL Phonetics 
Herbert-Lewin-Strasse 6, 50931 Köln, Germany 
Michael Franke (mchfranke@gmail.com) 
Universität Tübingen, Seminar für Sprachwissenschaften 
Wilhelmstr. 19–23, 72074 Tübingen, Germany 
Abstract 
